Folder: BTP_Project

Note: BTP-Problem.txt
This project will involve analysing electrical and optical loss limits in solar cells with different architectures (bifacial, PERC, and tandem). 
The aim is to come up with a model with an analytical or a semi-analytical framework, so that we are able to provide guidelines for efficient design of these 
solar cells with different architectures.

Note: IMPORTANT.txt
Take Voc = 1.01V
and Voc = 0.77V when in direct contact with Au without any HTL

File: AM0AM1_5.csv
Wavelength (nm),Extraterrestrial W*m-2*nm-1,Global tilt  W*m-2*nm-1,Direct+circumsolar W*m-2*nm-1,,Wavelength (nm),W*m-2*nm-1
280,0.082,4.73E-23,2.54E-26,,119.5,6.19E-05
283.5,0.323,3.54E-17,1.46E-19,,126.5,3.52E-05
287,0.362,2.74E-12,7.25E-14,,133.5,0.000168
290.5,0.606,1.38E-08,1.33E-09,,140.5,6.08E-05
294,0.533,4.17E-06,9.46E-07,,147.5,8.49E-05
297.5,0.529,0.000186,6.79E-05,,154.5,0.000206
301,0.463,0.00193,0.000919,,161.5,0.000223
304.5,0.626,0.012,0.00647,,168.5,0.000456
308,0.645,0.0378,0.0208,,175.5,0.00108
311.5,0.744,0.0841,0.0462,,182.5,0.00224
315,0.684,0.136,0.0737,,189.5,0.00357
318.5,0.68,0.186,0.1,,196.5,0.00601
322,0.735,0.222,0.122,,203.5,0.00922
325.5,0.914,0.324,0.179,,210.5,0.0279
329,1,0.422,0.233,,217.5,0.0353
332.5,0.98,0.439,0.247,,224.5,0.059
336,0.89,0.415,0.238,,231.5,0.051
339.5,0.989,0.474,0.278,,238.5,0.042
343,1.04,0.515,0.309,,245.5,0.0494
346.5,0.956,0.487,0.297,,252.5,0.0415
350,1.01,0.528,0.329,,259.5,0.104
353.5,1.08,0.572,0.364,,266.5,0.249
357,0.842,0.457,0.295,,273.5,0.197
360.5,1.03,0.565,0.372,,280.5,0.0946
364,1.07,0.606,0.405,,287.5,0.336
367.5,1.23,0.709,0.48,,294.5,0.509
371,1.18,0.693,0.476,,301.5,0.456
374.5,0.925,0.552,0.384,,308.5,0.611
378,1.41,0.856,0.603,,315.5,0.633
381.5,1.12,0.688,0.491,,322.5,0.689
385,1.08,0.674,0.486,,329.5,1.06
388.5,0.997,0.631,0.461,,336.5,0.809
392,1.24,0.795,0.587,,343.5,0.951
395.5,1.32,0.86,0.641,,350.5,1.05
399,1.62,1.07,0.804,,357.5,0.796
405,1.72,1.15,0.878,,364.5,1.01
412,1.82,1.25,0.967,,371.5,1.18
419,1.75,1.23,0.964,,378.5,1.33
426,1.7,1.21,0.967,,385.5,1.01
433,1.69,1.23,0.991,,392.5,1.02
440,1.83,1.35,1.1,,399.5,1.66
447,1.99,1.49,1.23,,406.5,1.59
454,2.02,1.53,1.27,,413.5,1.76
461,2.06,1.58,1.33,,420.5,1.76
468,2.01,1.56,1.32,,427.5,1.57
475,2.08,1.62,1.38,,434.5,1.67
482,2.06,1.62,1.39,,441.5,1.93
489,1.82,1.45,1.25,,448.5,1.97
496,1.95,1.57,1.35,,455.5,2.03
503,1.95,1.57,1.36,,462.5,2.1
510,1.91,1.55,1.35,,469.5,1.99
517,1.54,1.26,1.1,,476.5,1.96
524,1.94,1.59,1.4,,483.5,2.02
531,2,1.63,1.43,,490.5,2.01
538,1.91,1.57,1.39,,497.5,2.02
545,1.87,1.54,1.37,,504.5,1.87
552,1.9,1.57,1.39,,511.5,2
559,1.75,1.45,1.29,,518.5,1.65
566,1.75,1.44,1.28,,525.5,1.93
573,1.88,1.52,1.36,,532.5,1.77
580,1.83,1.5,1.35,,539.5,1.83
587,1.84,1.53,1.37,,546.5,1.88
594,1.79,1.45,1.3,,553.5,1.88
601,1.74,1.46,1.31,,560.5,1.84
608,1.75,1.49,1.34,,567.5,1.89
615,1.71,1.47,1.33,,574.5,1.87
622,1.68,1.43,1.29,,581.5,1.85
629,1.69,1.41,1.28,,588.5,1.75
636,1.61,1.41,1.28,,595.5,1.78
643,1.62,1.45,1.31,,602.5,1.72
650,1.53,1.36,1.23,,609.5,1.74
657,1.38,1.24,1.12,,616.5,1.61
664,1.55,1.4,1.26,,623.5,1.67
671,1.53,1.42,1.28,,631,1.64
678,1.51,1.41,1.27,,645,1.63
685,1.47,1.37,1.25,,659,1.55
692,1.45,1.27,1.15,,673,1.52
699,1.43,1.29,1.17,,687,1.47
706,1.41,1.31,1.19,,701,1.39
713,1.37,1.29,1.17,,715,1.37
720,1.35,0.986,0.899,,729,1.32
727,1.34,1.08,0.99,,743,1.29
734,1.34,1.24,1.13,,757,1.25
741,1.27,1.21,1.11,,771,1.2
748,1.28,1.24,1.13,,785,1.18
755,1.28,1.24,1.13,,799,1.14
762,1.25,0.688,0.635,,813,1.11
769,1.21,1.13,1.03,,826,1.08
776,1.21,1.18,1.08,,840,1.04
783,1.19,1.16,1.07,,854,0.878
790,1.17,1.09,1,,868,0.94
797,1.16,1.09,1.01,,882,0.951
804,1.13,1.08,0.995,,896,0.939
811,1.11,1.05,0.973,,910,0.892
818,1.09,0.823,0.763,,924,0.859
825,1.07,0.969,0.898,,938,0.858
832,1.05,0.894,0.83,,952,0.832
839,1.04,1,0.928,,966,0.795
846,1.04,1.02,0.944,,980,0.775
853,0.981,0.965,0.895,,994,0.756
860,1,0.988,0.918,,1008,0.734
867,0.925,0.915,0.851,,1022,0.702
874,0.949,0.94,0.875,,1036,0.684
881,0.92,0.909,0.846,,1050,0.662
888,0.941,0.922,0.859,,1064,0.646
895,0.926,0.814,0.76,,1078,0.627
902,0.877,0.668,0.625,,1092,0.616
909,0.886,0.704,0.659,,1106,0.595
916,0.895,0.576,0.541,,1120,0.574
923,0.833,0.745,0.697,,1134,0.564
930,0.869,0.432,0.407,,1148,0.552
937,0.854,0.163,0.155,,1162,0.532
944,0.819,0.286,0.27,,1176,0.518
951,0.82,0.484,0.456,,1190,0.508
958,0.811,0.461,0.435,,1204,0.495
965,0.796,0.504,0.475,,1218,0.49
972,0.788,0.688,0.646,,1232,0.475
979,0.766,0.638,0.6,,1246,0.464
986,0.766,0.751,0.706,,1260,0.453
993,0.756,0.737,0.693,,1274,0.443
1000,0.743,0.735,0.692,,1288,0.431
1007,0.731,0.728,0.685,,1302,0.414
1014,0.723,0.721,0.678,,1316,0.398
1021,0.703,0.702,0.661,,1330,0.388
1028,0.697,0.694,0.654,,1344,0.38
1035,0.684,0.682,0.643,,1358,0.369
1042,0.675,0.672,0.634,,1372,0.362
1049,0.665,0.659,0.622,,1386,0.353
1056,0.656,0.646,0.611,,1400,0.343
1063,0.637,0.622,0.588,,1414,0.338
1070,0.622,0.605,0.572,,1428,0.329
1077,0.624,0.604,0.572,,1442,0.319
1084,0.614,0.579,0.548,,1456,0.313
1091,0.608,0.588,0.557,,1470,0.31
1098,0.587,0.503,0.477,,1484,0.304
1105,0.591,0.506,0.481,,1498,0.299
1112,0.583,0.414,0.393,,1512,0.291
1119,0.572,0.113,0.108,,1526,0.285
1126,0.553,0.0516,0.0494,,1540,0.273
1133,0.562,0.153,0.147,,1554,0.268
1140,0.556,0.256,0.244,,1568,0.263
1147,0.554,0.0592,0.0567,,1582,0.259
1154,0.547,0.142,0.136,,1596,0.251
1161,0.519,0.348,0.332,,1610,0.24
1168,0.534,0.42,0.4,,1624,0.242
1175,0.519,0.452,0.431,,1638,0.227
1182,0.517,0.323,0.309,,1652,0.227
1189,0.484,0.416,0.397,,1666,0.221
1196,0.506,0.431,0.412,,1680,0.208
1203,0.488,0.434,0.414,,1694,0.211
1210,0.492,0.453,0.433,,1708,0.202
1217,0.488,0.455,0.435,,1722,0.198
1224,0.482,0.448,0.428,,1736,0.183
1231,0.474,0.472,0.451,,1750,0.186
1238,0.467,0.468,0.447,,1764,0.181
1245,0.456,0.457,0.436,,1778,0.175
1252,0.452,0.451,0.431,,1792,0.172
1259,0.448,0.427,0.409,,1806,0.169
1266,0.446,0.385,0.369,,1820,0.16
1273,0.441,0.406,0.389,,1834,0.159
1280,0.435,0.422,0.404,,1848,0.151
1287,0.43,0.422,0.404,,1862,0.15
1294,0.416,0.404,0.387,,1876,0.13
1301,0.414,0.362,0.347,,1890,0.142
1308,0.409,0.347,0.333,,1904,0.139
1315,0.392,0.286,0.274,,1918,0.135
1322,0.395,0.302,0.29,,1932,0.131
1329,0.38,0.178,0.171,,1946,0.119
1336,0.382,0.183,0.177,,1960,0.126
1343,0.38,0.127,0.123,,1974,0.121
1350,0.371,0.016,0.0155,,1988,0.119
1357,0.364,7.18E-05,6.94E-05,,2002,0.116
1364,0.367,1.36E-06,1.31E-06,,2016,0.114
1371,0.359,1.97E-08,1.91E-08,,2030,0.109
1378,0.357,0.00111,0.00107,,2044,0.108
1385,0.352,2.09E-06,2.03E-06,,2058,0.104
1392,0.352,2.38E-05,2.31E-05,,2072,0.1
1399,0.349,0.000812,0.000788,,2086,0.0985
1406,0.342,0.00204,0.00199,,2100,0.0961
1413,0.333,0.0234,0.0227,,2114,0.0944
1420,0.333,0.00827,0.00804,,2128,0.0922
1427,0.327,0.0495,0.0482,,2142,0.0906
1434,0.325,0.021,0.0204,,2156,0.0887
1441,0.317,0.0318,0.031,,2170,0.0856
1448,0.321,0.116,0.113,,2184,0.0846
1455,0.312,0.0662,0.0644,,2198,0.083
1462,0.31,0.131,0.127,,2212,0.081
1469,0.312,0.0948,0.0923,,2226,0.0781
1476,0.304,0.0688,0.067,,2240,0.0764
1483,0.298,0.149,0.145,,2254,0.074
1490,0.301,0.175,0.17,,2268,0.0733
1497,0.297,0.229,0.222,,2282,0.0701
1504,0.283,0.16,0.156,,2296,0.0691
1511,0.294,0.265,0.257,,2310,0.0687
1518,0.29,0.252,0.245,,2324,0.0654
1525,0.278,0.259,0.251,,2338,0.065
1532,0.283,0.278,0.27,,2352,0.0629
1539,0.278,0.273,0.265,,2366,0.0628
1546,0.277,0.275,0.267,,2380,0.0617
1553,0.271,0.271,0.264,,2394,0.06
1560,0.265,0.266,0.258,,2408,0.0592
1567,0.264,0.263,0.256,,2422,0.0577
1574,0.262,0.241,0.235,,2436,0.0562
1581,0.265,0.249,0.242,,2450,0.0546
1588,0.25,0.251,0.244,,2464,0.0544
1595,0.258,0.258,0.251,,2478,0.053
1602,0.249,0.224,0.218,,2492,0.052
1609,0.249,0.227,0.221,,2560,0.0467
1616,0.232,0.231,0.224,,2700,0.0387
1623,0.242,0.242,0.236,,2840,0.0321
1630,0.237,0.237,0.23,,2980,0.0268
1637,0.227,0.227,0.221,,3120,0.0225
1644,0.226,0.224,0.217,,3260,0.0191
1651,0.224,0.209,0.203,,3400,0.0161
1658,0.225,0.225,0.219,,3540,0.0139
1665,0.221,0.212,0.206,,3680,0.0119
1672,0.212,0.211,0.206,,3820,0.0104
1679,0.213,0.213,0.207,,3960,0.00903
1686,0.21,0.21,0.205,,4100,0.00789
1693,0.211,0.211,0.206,,4240,0.00688
1700,0.205,0.2,0.195,,4380,0.00602
1730,0.193,0.174,0.17,,4520,0.0053
1765,0.181,0.133,0.13,,4660,0.00467
1800,0.168,0.0318,0.0311,,4800,0.00414
1835,0.158,6.42E-06,6.28E-06,,4940,0.00368
1870,0.146,2.67E-10,2.61E-10,,5200,0.00303
1905,0.139,5.67E-07,5.58E-07,,5550,0.00235
1940,0.13,0.00328,0.00324,,5900,0.00186
1975,0.121,0.0679,0.0667,,6250,0.00149
2010,0.115,0.0397,0.0391,,6600,0.0012
2045,0.108,0.0911,0.0896,,6950,0.000986
2080,0.0993,0.0868,0.0855,,7300,0.000815
2115,0.0939,0.0917,0.0903,,7650,0.00068
2150,0.0897,0.0846,0.0834,,8000,0.000572
2185,0.0847,0.0746,0.0735,,8350,0.000485
2220,0.08,0.0777,0.0766,,8700,0.000413
2255,0.0743,0.0677,0.0669,,9050,0.000355
2290,0.0712,0.0632,0.0625,,9400,0.000306
2325,0.0656,0.0562,0.0556,,9750,0.000266
2360,0.0631,0.0502,0.0497,,12000,0.000115
2395,0.0601,0.0406,0.0402,,19000,1.81E-05
2430,0.0572,0.0451,0.0447,,60000,1.85E-07
2465,0.0543,0.0241,0.024,,300000,2.95E-10
2500,0.0514,0.00706,0.00703,,,
2535,0.0471,1.75E-07,1.74E-07,,,
2570,0.0449,1.53E-18,1.52E-18,,,
2605,0.0428,5.81E-35,5.76E-35,,,
2640,0.0402,1.18E-16,1.17E-16,,,
2675,0.0386,0,0,,,
2710,0.0367,1.13E-35,1.12E-35,,,
2745,0.0354,1.31E-23,1.32E-23,,,
2780,0.0336,4.81E-34,4.85E-34,,,
2815,0.0323,2.87E-10,2.9E-10,,,
2850,0.0307,1.16E-06,1.17E-06,,,
2885,0.0292,0.000453,0.000459,,,
2920,0.028,0.00289,0.00293,,,
2955,0.0266,0.00234,0.00237,,,
2990,0.0255,0.0103,0.0104,,,
3025,0.0245,0.0075,0.00759,,,
3060,0.0238,0.0063,0.00638,,,
3095,0.0226,0.000655,0.000663,,,
3130,0.0215,0.00576,0.00582,,,
3165,0.0207,0.014,0.0142,,,
3200,0.0199,0.000438,0.000443,,,
3235,0.0193,0.00729,0.00736,,,
3270,0.0186,0.00122,0.00123,,,
3305,0.0179,0.00394,0.00397,,,
3340,0.0169,0.00346,0.00349,,,
3375,0.0161,0.00846,0.00854,,,
3410,0.0155,0.00708,0.00715,,,
3445,0.015,0.0113,0.0114,,,
3480,0.0145,0.0112,0.0113,,,
3515,0.014,0.0115,0.0116,,,
3550,0.0136,0.0105,0.0106,,,
3585,0.0131,0.00917,0.00923,,,
3620,0.0126,0.0116,0.0117,,,
3655,0.0122,0.011,0.011,,,
3690,0.0118,0.00969,0.00975,,,
3725,0.0114,0.0107,0.0108,,,
3760,0.0109,0.00886,0.0089,,,
3795,0.0106,0.00887,0.00891,,,
3830,0.0103,0.00959,0.00963,,,
3865,0.00991,0.0081,0.00812,,,
3900,0.0096,0.00793,0.00795,,,
3935,0.0093,0.00735,0.00737,,,
3970,0.00893,0.00768,0.0077,,,
4000,0.00868,0.0071,0.00712,,,